# Athena data file -- Athena version 0.8.061
# Saving 4.73 as normalized mu(E)
# .  Element=Au   Edge=L3
# Background parameters
# .  E0=11919.023  Eshift=-0.250  Rbkg=1.000
# .  Standard=0: None
# .  Kweight=1.0  Edge step=0.226
# .  Fixed step=no    Flatten=yes
# .  Pre-edge range: [ -150.000 : -30.000 ]
# .  Pre-edge line: 5.6586 + -0.00050676 * E
# .  Normalization range: [ 50.000 : 950.125 ]
# .  Post-edge polynomial: 14.437 + -0.0019312 * E + 5.9303e-08 * E^2
# .  Spline range: [ 0.000 : 970.120 ]   Clamps: None/Strong
# Foreward FT parameters
# .  Kweight=0.5   Window=kaiser-bessel   Phase correction=no
# .  k-range: [ 2.000 : 15.350 ]   dk=1.00
# Backward FT parameters
# .  R-range: [ 1.000 : 3.000 ]
# .  dR=0.00   Window=kaiser-bessel
# Plotting parameters
# .  Multiplier=1   Y-offset=0.000
# .
# 1-D Scan File created by LabVIEW Control Panel  10/30/2005  2:50:40 AM; Scan time 0 hrs 6 min 45 sec.
# ^^ Preprocessing chores performed:
# ^^    constraint of parameters to aucltimecourse.0001
# ^^    alignment to aucltimecourse.0001
# ^^ Imported with reference channel
#------------------------
#  energy norm bkg_norm der_norm i0
  11719.742       0.11441314E-01   0.11419413E-01  -0.31662333E-03    176436.39
  11729.820       0.82502294E-02   0.82283206E-02  -0.22400881E-03    176868.39
  11739.467       0.70227798E-02   0.70008634E-02  -0.18010123E-03    177076.39
  11749.760       0.46591009E-02   0.46371764E-02  -0.23607916E-03    176757.39
  11759.981       0.21797593E-02   0.21578268E-02  -0.14657385E-03    176724.39
  11769.467       0.17705691E-02   0.17486290E-02   0.91309850E-05    176630.39
  11780.145       0.23638814E-02   0.23419329E-02  -0.69822728E-04    176495.39
  11789.483       0.37298895E-03   0.35103311E-03  -0.15914023E-03    176050.39
  11799.562      -0.72611138E-03  -0.74807517E-03  -0.25900130E-04    176158.39
  11809.841      -0.15429719E-03  -0.17626909E-03   0.32851580E-04    174578.39
  11819.682      -0.65131294E-04  -0.87110955E-04  -0.93254507E-04    175268.39
  11829.510      -0.19884792E-02  -0.20104666E-02  -0.49295586E-04    174977.39
  11839.811      -0.10573976E-02  -0.10793931E-02  -0.28650570E-04    174711.39
  11849.673      -0.25661579E-02  -0.25881612E-02  -0.74174649E-04    174195.39
  11859.398      -0.25102113E-02  -0.25322223E-02  -0.64948708E-04    173288.39
  11869.660      -0.38643168E-02  -0.38863359E-02   0.12921639E-03    173519.39
  11879.480       0.84736958E-04   0.62710122E-04   0.61226657E-03    173504.39
  11889.593       0.83399265E-02   0.83178916E-02   0.69345372E-03    172914.39
  11890.055       0.74177572E-02   0.73957220E-02   0.15723952E-02    172962.39
  11890.393       0.95977779E-02   0.95757425E-02   0.24742054E-02    172989.39
  11890.824       0.93210391E-02   0.92990034E-02  -0.14600525E-03    173007.39
  11891.316       0.94629910E-02   0.94409548E-02   0.77123124E-03    173103.39
  11891.901       0.10151747E-01   0.10129711E-01  -0.24648424E-03    173134.39
  11892.517       0.91671280E-02   0.91450909E-02  -0.12089364E-03    173178.39
  11893.071       0.10010342E-01   0.99883042E-02   0.44611975E-03    173199.39
  11893.717       0.97027295E-02   0.96806914E-02   0.98295740E-03    173164.39
  11894.241       0.11160305E-01   0.11138266E-01   0.25813099E-02    173232.39
  11894.764       0.12404995E-01   0.12382956E-01   0.35152779E-02    173202.39
  11895.134       0.14299365E-01   0.14277326E-01   0.11346493E-02    173065.39
  11895.565       0.13313469E-01   0.13291429E-01  -0.16146810E-02    172915.39
  11895.903       0.13056196E-01   0.13034156E-01   0.81616409E-03    172784.39
  11896.304       0.13916755E-01   0.13894714E-01   0.16189716E-02    172814.39
  11896.797       0.14502309E-01   0.14480269E-01   0.12330037E-02    172901.39
  11897.413       0.15284073E-01   0.15262032E-01   0.14007321E-02    173250.39
  11898.029       0.16228382E-01   0.16206340E-01   0.14818218E-02    173375.39
  11898.614       0.17064601E-01   0.17042560E-01   0.28125092E-02    173300.39
  11899.138       0.19348183E-01   0.19326141E-01   0.23253577E-02    173300.39
  11899.724       0.19644283E-01   0.19622240E-01   0.11805229E-02    173285.39
  11900.278       0.20694322E-01   0.20672279E-01   0.40506103E-02    173206.39
  11900.895       0.24388476E-01   0.24366433E-01   0.29849990E-02    173128.39
  11901.388       0.24006730E-01   0.23984686E-01   0.25820096E-02    173065.38
  11901.881       0.26935576E-01   0.26913532E-01   0.35628298E-02    173022.38
  11902.282       0.27192132E-01   0.27170088E-01   0.94261425E-03    172971.39
  11902.621       0.27633081E-01   0.27611036E-01   0.41100306E-02    172838.39
  11903.022       0.30233634E-01   0.30211588E-01   0.40414270E-02    172448.39
  11903.423       0.30873246E-01   0.30851201E-01   0.39473054E-02    171887.39
  11904.009       0.34128982E-01   0.34106936E-01   0.22998487E-02    171127.39
  11904.533       0.33426721E-01   0.33404675E-01   0.70783716E-03    170859.39
  11905.058       0.34871288E-01   0.34849241E-01   0.33171366E-02    171317.39
  11905.644       0.37110367E-01   0.37088320E-01   0.57567144E-02    172116.39
  11906.168       0.41264631E-01   0.41242583E-01   0.53950033E-02    172690.39
  11906.693       0.42769665E-01   0.42747616E-01   0.57807321E-02    172930.39
  11907.187       0.47150713E-01   0.47128665E-01   0.61528922E-02    173019.39
  11907.588       0.48275727E-01   0.48253678E-01   0.78090224E-02    172965.39
  11907.989       0.53416375E-01   0.53394325E-01   0.90035247E-02    172968.39
  11908.328       0.54944533E-01   0.54922483E-01   0.54072245E-02    173008.39
  11908.699       0.57254817E-01   0.57232768E-01   0.70498577E-02    173021.39
  11909.162       0.60819786E-01   0.60797736E-01   0.92888018E-02    172928.39
  11909.656       0.66143469E-01   0.66121418E-01   0.11767850E-01    172907.39
  11910.211       0.73171528E-01   0.73149477E-01   0.11652809E-01    172417.39
  11910.767       0.79095089E-01   0.79073037E-01   0.13268433E-01    171964.39
  11911.261       0.87100797E-01   0.87078745E-01   0.14831400E-01    171199.39
  11911.879       0.95582704E-01   0.95560651E-01   0.16046903E-01    170431.39
  11912.435       0.10593238       0.10591033       0.17960378E-01    170683.39
  11913.053       0.11666203       0.11663998       0.20053375E-01    171393.39
  11913.578       0.12885091       0.12882886       0.26508963E-01    172180.39
  11914.072       0.14368577       0.14366371       0.28502453E-01    172577.39
  11914.474       0.15438694       0.15436488       0.33453995E-01    172761.38
  11914.844       0.16952580       0.16950374       0.44076309E-01    172795.39
  11915.246       0.18843402       0.18841196       0.53479009E-01    172891.39
  11915.710       0.21579659       0.21577453       0.63559753E-01    172947.39
  11916.266       0.25325224       0.25323018       0.72488305E-01    172980.39
  11916.822       0.29644746       0.29642540       0.84075888E-01    172971.39
  11917.502       0.35720015       0.35717809       0.10441784        172978.39
  11918.120       0.43201376       0.43199170       0.13605632        172928.39
  11918.646       0.51282994       0.51280788       0.15773386        172662.39
  11919.203       0.60271273        1.0562868       0.18268474        172676.39
  11919.605       0.68796891       0.91021425       0.19973960        172649.39
  11920.007       0.76334232       0.89213379       0.18187374        172691.39
  11920.347       0.82299146       0.87791227       0.15586094        172749.39
  11920.718       0.87424369       0.86349315       0.10751051        172762.39
  11921.151       0.90948475       0.84807320       0.58985177E-01    172792.39
  11921.615       0.92719578       0.83317194       0.56656954E-02    172759.39
  11922.296       0.91602231       0.81421855      -0.34328560E-01    172794.39
  11922.914       0.88264996       0.79983275      -0.64526031E-01    172721.39
  11923.502       0.83821468       0.78853395      -0.64471112E-01    172791.39
  11924.121       0.80490003       0.77898854      -0.50010221E-01    172780.39
  11924.616       0.78254919       0.77298681      -0.35292329E-01    172784.39
  11925.235       0.76562698       0.76740135      -0.23931549E-01    173300.39
  11925.762       0.75519233       0.76422348      -0.18784957E-01    173277.39
  11926.288       0.74590222       0.76239002      -0.14563099E-01    173283.39
  11926.721       0.74125802       0.76182410      -0.10941354E-01    173201.39
  11927.093       0.73712971       0.76197547      -0.79266690E-02    173077.39
  11927.464       0.73539983       0.76267987      -0.23862652E-02    172963.39
  11927.836       0.73538837       0.76390469       0.72632294E-03    172824.39
  11928.300       0.73604295       0.76611778       0.11637949E-01    172790.39
  11928.858       0.74732575       0.76968967       0.22252963E-01    173138.39
  11929.415       0.76090202       0.77415686       0.23186536E-01    173228.39
  11930.004       0.77394744       0.77972158       0.27796762E-01    173347.39
  11930.624       0.79453498       0.78638125       0.30805276E-01    173203.39
  11931.150       0.80930698       0.79257755       0.28871162E-01    173280.39
  11931.615       0.82320110       0.79837474       0.29996985E-01    173311.39
  11932.049       0.83629921       0.80400542       0.25742053E-01    173304.39
  11932.421       0.84397436       0.80896030       0.22691841E-01    173348.39
  11932.762       0.85250247       0.81357694       0.18824002E-01    173352.38
  11933.165       0.85800608       0.81908948       0.13499701E-01    173405.38
  11933.568       0.86341366       0.82462367       0.98654311E-02    173372.39
  11934.002       0.86629597       0.83055986       0.36609096E-02    173281.39
  11934.653       0.86742865       0.83930839       0.13295009E-02    173308.39
  11935.149       0.86786614       0.84579609      -0.66341902E-03    173339.39
  11935.676       0.86678980       0.85251852      -0.16290311E-02    173359.39
  11936.203       0.86618957       0.85906710      -0.22510871E-02    173164.39
  11936.761       0.86438829       0.86581374      -0.22773821E-02    173039.39
  11937.288       0.86375900       0.87201103      -0.54392054E-03    172964.39
  11937.909       0.86380756       0.87908781       0.99445660E-03    173011.39
  11938.467       0.86497554       0.88526168       0.31630613E-02    173056.39
  11938.932       0.86708392       0.89026716       0.21643278E-02    172999.39
  11939.336       0.86688789       0.89450392       0.34350864E-02    173028.39
  11939.739       0.86988475       0.89864761       0.60542632E-02    172974.39
  11940.143       0.87180179       0.90269916       0.61737178E-02    173031.39
  11940.639       0.87547334       0.90756061       0.55987714E-02    173060.39
  11941.198       0.87774754       0.91286684       0.10027429E-01    172916.38
  11941.819       0.88734209       0.91856331       0.12675970E-01    172979.39
  11942.377       0.89274109       0.92351349       0.11637416E-01    172976.39
  11942.998       0.90111171       0.92882059       0.16617724E-01    172688.39
  11943.495       0.91135315       0.93292216       0.17462611E-01    172707.39
  11944.023       0.91903981       0.93714188       0.18422218E-01    172735.39
  11944.426       0.92854636       0.94027394       0.21293557E-01    172774.39
  11944.830       0.93625991       0.94332490       0.18361345E-01    172801.39
  11945.172       0.94225720       0.94584385       0.16065659E-01    172828.39
  11945.545       0.94776029       0.94852703       0.17117884E-01    172880.39
  11945.979       0.95610805       0.95157297       0.12788826E-01    172933.39
  11946.539       0.96050551       0.95535740       0.71028788E-02    172923.39
  11947.253       0.96519696       0.95998106       0.42461723E-02    172955.39
  11947.874       0.96622190       0.96381209       0.32054900E-02    172711.39
  11948.403       0.96891942       0.96693259       0.22070171E-02    172693.39
  11949.024       0.96879635       0.97044694      -0.18620854E-02    172693.39
  11949.553       0.96681478       0.97330333      -0.15322098E-02    172664.38
  11950.951       0.96590374       0.98030067       0.10201084E-03    172401.39
  11952.226       0.96716979       0.98599007       0.35747427E-02    172429.39
  11953.719       0.97587998       0.99186142       0.35003933E-02    172222.39
  11955.492       0.97869712       0.99779139       0.22748535E-02    171984.39
  11957.048       0.98354748        1.0021220       0.21775838E-02    172093.39
  11958.355       0.98501066        1.0051727       0.34102100E-02    172018.39
  11960.161       0.99424625        1.0085680       0.61560281E-02    171935.39
  11962.123        1.0083018        1.0112729       0.73382616E-02    171752.39
  11963.961        1.0222259        1.0129729       0.85224072E-02    171548.39
  11965.799        1.0397226        1.0139598       0.77226412E-02    171331.39
  11968.013        1.0536091        1.0143309       0.55175442E-02    171498.39
  11969.728        1.0614834        1.0141000       0.20453801E-02    171600.39
  11971.381        1.0605689        1.0135253      -0.16617296E-02    171692.39
  11973.846        1.0547216        1.0121718      -0.33628024E-02    171322.39
  11975.937        1.0453323        1.0107026      -0.47596541E-02    171316.39
  11977.686        1.0365126        1.0093520      -0.55728916E-02    171360.39
  11980.028        1.0225997        1.0075136      -0.53878983E-02    171059.39
  11982.060        1.0130152        1.0060021      -0.59388632E-02    171265.39
  11983.747        1.0005671        1.0048194      -0.60460908E-02    171254.39
  11986.186       0.98811912        1.0032248      -0.48061002E-02    170997.39
  11988.689       0.97687857        1.0017244      -0.41586693E-02    170958.39
  11990.817       0.96891363        1.0005530      -0.28596158E-02    170802.39
  11993.290       0.96376589       0.99930773      -0.11069881E-02    170178.39
  11995.326       0.96396133       0.99837308       0.27520959E-03    170841.39
  11998.051       0.96511082       0.99724416       0.12316207E-02    170979.39
  12000.778       0.97070975       0.99624900       0.26553407E-02    170727.39
  12002.817       0.97778672       0.99558891       0.24944778E-02    170645.39
  12005.671       0.98293110       0.99477895       0.19201613E-02    170478.39
  12007.743       0.98725629       0.99427101       0.12217126E-02    170627.39
  12010.286       0.98857215       0.99373429       0.10229274E-02    170332.39
  12013.112       0.99274667       0.99324387       0.90365612E-03    170333.39
  12015.595       0.99336036       0.99289972       0.61000706E-03    170384.38
  12018.707       0.99614073       0.99257448       0.89495121E-03    169979.39
  12020.909       0.99809178       0.99241077       0.16576239E-02    170143.39
  12024.276        1.0053365       0.99225779       0.21851088E-02    169723.39
  12026.889        1.0111138       0.99221319       0.19772104E-02    169908.39
  12029.756        1.0161200       0.99223114       0.18148103E-02    169745.39
  12032.340        1.0209475       0.99230102       0.91295230E-03    169740.39
  12035.303        1.0211176       0.99243624      -0.26049468E-03    169539.39
  12038.363        1.0192967       0.99262886      -0.13646017E-02    169315.39
  12041.235        1.0129337       0.99285032      -0.27005850E-02    168758.39
  12044.487        1.0026553       0.99313859      -0.35022594E-02    168244.39
  12047.393       0.99125182       0.99342100      -0.24568233E-02    168053.39
  12050.775       0.98707955       0.99376790      -0.13951440E-02    168674.39
  12053.653       0.98238337       0.99406949      -0.68971100E-03    168974.39
  12056.976       0.98265866       0.99441420      -0.40577395E-03    168987.39
  12059.761       0.97975334       0.99469513      -0.63028402E-04    169186.39
  12063.246       0.98209677       0.99503559       0.21251656E-03    168642.38
  12066.415       0.98098000       0.99533488      -0.12758616E-03    168453.39
  12069.840       0.98105791       0.99564733       0.33447457E-03    168535.39
  12073.266       0.98305442       0.99594871       0.78896906E-03    168656.39
  12076.726       0.98626077       0.99624179       0.21091650E-03    168365.39
  12079.903       0.98422035       0.99650100       0.93790217E-04    168616.39
  12083.081       0.98662176       0.99675107       0.10439347E-02    168934.39
  12086.801       0.99115443       0.99703220       0.13500462E-02    168835.39
  12090.174       0.99591061       0.99727637       0.11545265E-02    168637.39
  12094.122       0.99929496       0.99754950       0.98426085E-03    168070.39
  12097.340        1.0026461       0.99776215       0.19488425E-02    168033.39
  12101.324        1.0129969       0.99801329       0.47012219E-03    159766.39
  12104.769        1.0057815       0.99821973      -0.88384797E-03    167968.39
  12108.280        1.0065013       0.99842009       0.38899928E-03    165494.39
  12112.112        1.0082563       0.99862744       0.17147953E-02    167245.39
  12115.850        1.0190757       0.99881853      -0.35504679E-03    165622.39
  12119.975        1.0050243       0.99901676      -0.20377663E-02    166975.39
  12123.687        1.0026531       0.99918405      -0.43487279E-03    167240.39
  12127.529        1.0012862       0.99934638      -0.21300498E-03    167372.39
  12131.662        1.0004594       0.99950896      -0.23586551E-03    167197.39
  12134.867       0.99908616       0.99962664      -0.57578576E-04    166866.39
  12139.262       0.99951893       0.99977625       0.16084255E-03    166980.39
  12143.564       0.99989241       0.99990988      -0.16756944E-03    167153.39
  12147.129       0.99764820        1.0000113       0.50479287E-04    167052.39
  12151.854       0.99970909        1.0001328       0.18760493E-04    165800.39
  12155.875       0.99715996        1.0002251      -0.45082696E-03    166854.39
  12159.577       0.99563441        1.0003011      -0.12489167E-03    166839.39
  12164.216       0.99545890        1.0003847      -0.39557040E-03    166361.39
  12168.406       0.99142554        1.0004495      -0.33363088E-03    166595.39
  12172.374       0.99205670        1.0005019       0.12632187E-03    166325.39
  12177.183       0.99178152        1.0005543       0.18788320E-03    166020.39
  12181.415       0.99296055        1.0005909       0.82906846E-03    166150.39
  12185.392       0.99784601        1.0006176       0.78671889E-03    165828.39
  12190.082       0.99897671        1.0006403       0.51011285E-03    165440.39
  12194.777        1.0017434        1.0006539       0.57578816E-03    165471.39
  12198.989        1.0032393        1.0006590       0.38925151E-03    165453.39
  12203.690        1.0043247        1.0006574       0.52347247E-03    164848.39
  12208.525        1.0072583        1.0006483       0.49557107E-03    164746.39
  12212.616        1.0078170        1.0006354       0.33153826E-03    164829.39
  12217.394        1.0092509        1.0006148       0.37923177E-03    164487.39
  12222.370        1.0104503        1.0005879       0.53913289E-05    164053.39
  12227.285        1.0081986        1.0005565      -0.29261538E-03    163691.39
  12231.845        1.0065946        1.0005238      -0.21436328E-03    164110.39
  12236.279        1.0052206        1.0004894      -0.44134730E-03    163938.39
  12241.434        1.0012189        1.0004469      -0.57736810E-03    163225.39
  12246.429       0.99812376        1.0004039      -0.53706501E-03    162960.39
  12251.070       0.99484537        1.0003631      -0.10828995E-03    163434.39
  12255.910       0.99589374        1.0003205       0.22407887E-03    163056.39
  12261.082       0.99579226        1.0002757       0.67121573E-04    162838.38
  12266.061       0.99523432        1.0002341      -0.88855565E-04    162329.39
  12271.242       0.99351998        1.0001933       0.15561936E-04    160805.39
  12276.000       0.99402389        1.0001589       0.27743913E-03    162749.39
  12281.221       0.99489069        1.0001253       0.18545755E-03    159614.39
  12286.612       0.99447708        1.0000962       0.42775092E-03    162648.39
  12291.711       0.99785183        1.0000748       0.74915771E-03    162748.39
  12297.210        1.0008447        1.0000595       0.39622391E-03    162417.39
  12302.054        1.0003889        1.0000534       0.27218679E-03    162632.39
  12307.397        1.0020510        1.0000548       0.52352862E-03    161945.39
  12312.877        1.0043614        1.0000646       0.35456045E-03    161801.39
  12318.296        1.0041789        1.0000820       0.19989550E-03    161594.39
  12323.951        1.0047784        1.0001078      -0.61016837E-04    161798.39
  12329.148        1.0017258        1.0001379      -0.21923160E-03    161871.38
  12334.416        1.0007272        1.0001740       0.97387252E-04    161501.39
  12339.854        1.0009410        1.0002168       0.72216884E-04    161161.39
  12345.728       0.99958015        1.0002686       0.80997967E-04    160718.39
  12351.542       0.99982393        1.0003249       0.28350360E-03    160971.39
  12357.328        1.0007850        1.0003853       0.28437827E-03    160337.39
  12363.153        1.0010046        1.0004497       0.19849844E-03    161135.39
  12368.317        1.0009272        1.0005095       0.13253679E-03    160869.39
  12374.119        1.0003897        1.0005788       0.21827741E-03    160590.39
  12379.859        1.0012365        1.0006491       0.24793562E-03    160198.39
  12386.107        1.0010285        1.0007267       0.17184576E-03    160091.39
  12392.093        1.0009199        1.0008015       0.70154715E-04    159742.39
  12398.152       0.99945299        1.0008768       0.11553438E-03    159148.39
  12404.418       0.99982738        1.0009534       0.33290543E-03    159270.38
  12410.288        1.0009773        1.0010234       0.36614453E-03    159305.39
  12416.634        1.0017273        1.0010961       0.19856090E-03    159475.39
  12422.280        1.0007964        1.0011576       0.20848111E-03    159113.39
  12428.369        1.0016284        1.0012198       0.26231434E-03    158680.39
  12434.666        1.0013200        1.0012789       0.23337478E-03    158846.39
  12440.768        1.0017540        1.0013301       0.54892252E-03    158692.39
  12447.078        1.0053210        1.0013761       0.36456747E-03    157341.39
  12453.529        1.0034732        1.0014150      -0.64064385E-04    157880.39
  12460.021        1.0014731        1.0014447       0.16645608E-03    157983.39
  12466.724        1.0025468        1.0014646       0.32286559E-03    157775.39
  12473.162        1.0025612        1.0014728       0.25844923E-03    157980.39
  12479.709        1.0027404        1.0014708       0.20152922E-03    157499.39
  12486.399        1.0019595        1.0014590      -0.27902293E-03    157478.39
  12493.130       0.99563409        1.0014378      -0.10428306E-04    155762.39
  12499.664       0.99845249        1.0014094       0.62536342E-03    157309.39
  12506.137        1.0004200        1.0013743       0.48655366E-03    156982.39
  12513.094        1.0014823        1.0013299       0.22376176E-03    157154.39
  12519.991       0.99985602        1.0012799       0.29990038E-03    156823.39
  12526.656        1.0019143        1.0012268       0.27294887E-03    156957.39
  12533.226       0.99987411        1.0011709       0.22481793E-03    156471.39
  12540.316        1.0012262        1.0011073       0.21576049E-03    156342.39
  12547.278       0.99898901        1.0010428       0.17446523E-03    155974.39
  12554.247       0.99972197        1.0009771       0.34174197E-03    156140.39
  12561.018       0.99975431        1.0009131       0.36733561E-03    155940.39
  12568.244        1.0008076        1.0008456       0.30162644E-03    156406.39
  12575.272       0.99987162        1.0007819       0.31865590E-03    156177.39
  12582.307        1.0011102        1.0007211       0.42005532E-03    156156.39
  12589.385        1.0015541        1.0006639       0.39011455E-03    156107.39
  12596.679        1.0023391        1.0006103       0.26828064E-03    155810.39
  12604.085        1.0009642        1.0005624       0.10363678E-03    155347.39
  12611.049       0.99934261        1.0005246       0.44666197E-03    155737.39
  12618.264        1.0028170        1.0004939       0.52192741E-03    155350.39
  12625.661        1.0022966        1.0004725       0.26951699E-03    154969.39
  12633.032        1.0020183        1.0004625       0.30110041E-03    154984.39
  12640.308        1.0019107        1.0004648       0.38250514E-03    154932.39
  12647.487        1.0027589        1.0004800       0.29166299E-03    154548.39
  12654.953        1.0012739        1.0005108       0.45672614E-03    154475.39
  12662.639        1.0045420        1.0005597       0.44170605E-03    153926.39
  12669.774        1.0027386        1.0006211      -0.62287693E-04    154065.39
  12677.617       0.99841216        1.0007029       0.18775755E-03    153699.39
  12685.190        1.0002248        1.0007914       0.45219480E-03    152694.39
  12693.159       0.99992317        1.0008896       0.15010817E-03    153625.39
  12700.715       0.99698260        1.0009826       0.36549898E-03    153131.39
  12708.668       0.99996002        1.0010753       0.50734035E-03    153286.39
  12716.596       0.99920832        1.0011571       0.40616605E-03    153021.39
  12724.287        1.0005046        1.0012213       0.55179989E-03    152828.39
  12731.810        1.0018928        1.0012650       0.39795379E-03    152530.39
  12739.626        1.0007888        1.0012855       0.30141836E-03    152268.39
  12747.628        1.0005944        1.0012749       0.38848116E-03    152087.39
  12755.038        1.0008039        1.0012320       0.40386048E-03    152146.39
  12763.344        1.0007842        1.0011403       0.33487051E-03    151807.39
  12771.590       0.99979383        1.0009981       0.44036083E-03    151825.39
  12779.526        1.0014347        1.0008074       0.44657699E-03    151979.39
  12787.508        1.0004649        1.0005570       0.31210389E-03    151288.39
  12795.822       0.99986084        1.0002278       0.48569511E-03    151081.39
  12803.896        1.0016577       0.99983550       0.54864917E-03    151032.39
  12811.587        1.0019346       0.99939021       0.34017945E-03    150914.39
  12819.824        1.0003642       0.99883011       0.16941877E-03    150627.39
  12828.216       0.99767419       0.99816507       0.19861926E-03    150736.39
  12836.583       0.99648693       0.99740087       0.26223988E-03    150705.39
  12844.817       0.99481712       0.99654415       0.37908936E-03    150183.39
  12853.423       0.99548150       0.99553140       0.38699189E-03    150105.39
  12861.643       0.99387281       0.99444575       0.28669739E-03    149962.39
  12869.476       0.99290116       0.99329815       0.35792897E-03    149938.39
  12878.295       0.99230779       0.99186759       0.40448788E-03    149924.39
  12887.127       0.99198689       0.99028099       0.53475861E-03    149990.39
  12889.591       0.99316072       0.98980994       0.93805588E-03    149906.39
